1/3 octave (Sxx)
Frequency (Hz)	Level (dBC)
6,30000E+1	7,23114E+1
8,00000E+1	7,51351E+1
1,00000E+2	7,73894E+1
1,25000E+2	7,90268E+1
1,60000E+2	7,98879E+1
2,00000E+2	7,81942E+1
2,50000E+2	7,45603E+1
3,15000E+2	7,33191E+1
4,00000E+2	7,18095E+1
5,00000E+2	6,81886E+1
6,30000E+2	6,39121E+1
8,00000E+2	5,95950E+1
1,00000E+3	5,85197E+1
1,25000E+3	5,91835E+1
1,60000E+3	5,81624E+1
2,00000E+3	5,79173E+1
2,50000E+3	5,78795E+1
3,15000E+3	5,92820E+1
4,00000E+3	5,94284E+1
5,00000E+3	5,72113E+1
6,30000E+3	5,77274E+1
8,00000E+3	5,43952E+1

Correction factor for total and delta total computation : 	N/A
Total : 	86,377576
