1/3 octave (Sxx)
Frequency (Hz)	Level (dBC)
6,30000E+1	6,13489E+1
8,00000E+1	6,31258E+1
1,00000E+2	6,49793E+1
1,25000E+2	6,75014E+1
1,60000E+2	7,09864E+1
2,00000E+2	7,32904E+1
2,50000E+2	7,17398E+1
3,15000E+2	7,00896E+1
4,00000E+2	6,85043E+1
5,00000E+2	6,39745E+1
6,30000E+2	6,36514E+1
8,00000E+2	6,22745E+1
1,00000E+3	6,31059E+1
1,25000E+3	6,09813E+1
1,60000E+3	6,17355E+1
2,00000E+3	6,23462E+1
2,50000E+3	6,44740E+1
3,15000E+3	5,93963E+1
4,00000E+3	6,21912E+1
5,00000E+3	6,18320E+1
6,30000E+3	6,10081E+1
8,00000E+3	5,49517E+1

Correction factor for total and delta total computation : 	N/A
Total : 	79,972256
