1/3 octave (Sxx)
Frequency (Hz)	Level (dBA)
6,30000E+1	4,38507E+1
8,00000E+1	4,69341E+1
1,00000E+2	5,00986E+1
1,25000E+2	5,35749E+1
1,60000E+2	5,75492E+1
2,00000E+2	6,13207E+1
2,50000E+2	6,39098E+1
3,15000E+2	6,45234E+1
4,00000E+2	6,59008E+1
5,00000E+2	6,53191E+1
6,30000E+2	6,31714E+1
8,00000E+2	6,19623E+1
1,00000E+3	6,14315E+1
1,25000E+3	6,13691E+1
1,60000E+3	6,32811E+1
2,00000E+3	6,48843E+1
2,50000E+3	6,52063E+1
3,15000E+3	6,31482E+1
4,00000E+3	6,54551E+1
5,00000E+3	6,57167E+1
6,30000E+3	6,44052E+1
8,00000E+3	5,73797E+1

Correction factor for total and delta total computation : 	N/A
Total : 	76,090006
