1/3 octave (Sxx)
Frequency (Hz)	Level (dBC)
6,30000E+1	5,65154E+1
8,00000E+1	5,91568E+1
1,00000E+2	6,22605E+1
1,25000E+2	6,57218E+1
1,60000E+2	6,89486E+1
2,00000E+2	7,07605E+1
2,50000E+2	6,95501E+1
3,15000E+2	6,83610E+1
4,00000E+2	7,05385E+1
5,00000E+2	6,79812E+1
6,30000E+2	6,33162E+1
8,00000E+2	8,06486E+1
1,00000E+3	9,44715E+1
1,25000E+3	7,53117E+1
1,60000E+3	5,67347E+1
2,00000E+3	4,58798E+1
2,50000E+3	4,43006E+1
3,15000E+3	4,75729E+1
4,00000E+3	4,64988E+1
5,00000E+3	3,86619E+1
6,30000E+3	2,51746E+1
8,00000E+3	2,32890E+1

Correction factor for total and delta total computation : 	N/A
Total : 	94,607144
