1/3 octave (Sxx)
Frequency (Hz)	Level (dBA)
6,30000E+1	3,70821E+1
8,00000E+1	3,94245E+1
1,00000E+2	4,16568E+1
1,25000E+2	4,41874E+1
1,60000E+2	4,72264E+1
2,00000E+2	5,10548E+1
2,50000E+2	5,36550E+1
3,15000E+2	5,46135E+1
4,00000E+2	5,72182E+1
5,00000E+2	5,79511E+1
6,30000E+2	5,78460E+1
8,00000E+2	5,69371E+1
1,00000E+3	5,71316E+1
1,25000E+3	5,76351E+1
1,60000E+3	5,73298E+1
2,00000E+3	5,68949E+1
2,50000E+3	6,12731E+1
3,15000E+3	6,20965E+1
4,00000E+3	6,93995E+1
5,00000E+3	7,24335E+1
6,30000E+3	7,29779E+1
8,00000E+3	6,94581E+1

Correction factor for total and delta total computation : 	N/A
Total : 	77,802182
