1/3 octave (Sxx)
Frequency (Hz)	Level (dBA)
6,30000E+1	4,58001E+1
8,00000E+1	4,82961E+1
1,00000E+2	5,10263E+1
1,25000E+2	5,41689E+1
1,60000E+2	5,80297E+1
2,00000E+2	6,14431E+1
2,50000E+2	6,24132E+1
3,15000E+2	6,35162E+1
4,00000E+2	6,44296E+1
5,00000E+2	6,27804E+1
6,30000E+2	6,38751E+1
8,00000E+2	6,44990E+1
1,00000E+3	6,54533E+1
1,25000E+3	6,39258E+1
1,60000E+3	6,30086E+1
2,00000E+3	6,24095E+1
2,50000E+3	6,40043E+1
3,15000E+3	6,38867E+1
4,00000E+3	6,75170E+1
5,00000E+3	6,89600E+1
6,30000E+3	6,85315E+1
8,00000E+3	6,39566E+1

Correction factor for total and delta total computation : 	N/A
Total : 	77,158733
