1/3 octave (Sxx)
Frequency (Hz)	Level (dBC)
6,30000E+1	5,56747E+1
8,00000E+1	5,80052E+1
1,00000E+2	6,04390E+1
1,25000E+2	6,28407E+1
1,60000E+2	6,57414E+1
2,00000E+2	6,88417E+1
2,50000E+2	6,94743E+1
3,15000E+2	6,70412E+1
4,00000E+2	6,55251E+1
5,00000E+2	6,47635E+1
6,30000E+2	6,38760E+1
8,00000E+2	6,23626E+1
1,00000E+3	6,15312E+1
1,25000E+3	5,85110E+1
1,60000E+3	5,75983E+1
2,00000E+3	5,57221E+1
2,50000E+3	5,98184E+1
3,15000E+3	5,91575E+1
4,00000E+3	6,49882E+1
5,00000E+3	6,66885E+1
6,30000E+3	6,65672E+1
8,00000E+3	6,16268E+1

Correction factor for total and delta total computation : 	N/A
Total : 	77,580160
