1/3 octave (Sxx)
Frequency (Hz)	Level (dBC)
6,30000E+1	5,23222E+1
8,00000E+1	5,36690E+1
1,00000E+2	5,46188E+1
1,25000E+2	5,56647E+1
1,60000E+2	5,72899E+1
2,00000E+2	5,88324E+1
2,50000E+2	5,93847E+1
3,15000E+2	5,89517E+1
4,00000E+2	5,99775E+1
5,00000E+2	5,92936E+1
6,30000E+2	5,91625E+1
8,00000E+2	5,72063E+1
1,00000E+3	5,63320E+1
1,25000E+3	5,52444E+1
1,60000E+3	5,48869E+1
2,00000E+3	5,34876E+1
2,50000E+3	5,91283E+1
3,15000E+3	6,04290E+1
4,00000E+3	6,76804E+1
5,00000E+3	7,06805E+1
6,30000E+3	7,06911E+1
8,00000E+3	6,67909E+1

Correction factor for total and delta total computation : 	N/A
Total : 	76,344599
